File: data/uv_vis_data.csv
Sn Oxide,,SnSiO2 0.13%,,SnSiO2 0.5%,,SnSiO2 2%,,SnSiO2 6%,
wavelength (nm),intensity,wavelength (nm),intensity,wavelength (nm),intensity,wavelength (nm),intensity,wavelength (nm),intensity
194.58,121.374,194.58,1.27199,194.58,13.9898,194.58,67.7737,194.58,77.8818
196.45,1.79019,196.45,0.00195175,196.45,0.00673155,196.45,1.01969,196.45,0.464597
198.33,0.701722,198.33,0.00879302,198.33,0.0009770027,198.33,0.406589,198.33,0.170233
200.21,0.375865,200.21,0.0153398,200.21,0.0001533985,200.21,0.227375,200.21,0.0958741
202.09,0.259298,202.09,0.0274391,202.09,0,202.09,0.159027,202.09,0.0461083
203.96,0.170868,203.96,0.0355113,203.96,0,203.96,0.0961132,203.96,0.031077
205.84,0.113776,205.84,0.0444436,205.84,0,205.84,0.0609875,205.84,0.0264485
207.71,0.0598943,207.71,0.0890754,207.71,0.0001425206,207.71,0.029965,207.71,0.00912132
209.59,0.00787361,209.59,0.258814,209.59,0.00685879,209.59,0.0028345,209.59,0.0003149445
211.46,0,211.46,0.91338,211.46,0.0792061,211.46,0,211.46,0.0003093988
213.34,0.00408671,213.34,2.33614,213.34,0.408671,213.34,0.0121926,213.34,0.0264792
215.21,0.0642559,215.21,4.66735,215.21,1.13593,215.21,0.115535,215.21,0.167311
217.08,0.319715,217.08,7.70487,217.08,2.37805,217.08,0.477599,217.08,0.568383
218.96,0.883526,218.96,11.0856,218.96,4.24821,218.96,1.15747,218.96,1.29537
220.83,1.95441,220.83,15.6229,220.83,6.72822,220.83,2.41867,220.83,2.63277
222.7,3.7106,222.7,20.0856,222.7,9.89439,222.7,4.52292,222.7,4.52292
224.57,6.31033,224.57,24.7995,224.57,13.4389,224.57,7.49881,224.57,7.14036
226.44,9.67215,226.44,28.7337,226.44,17.3618,226.44,11.2287,226.44,10.4359
228.31,13.2779,228.31,31.53,228.31,20.7096,228.31,15.0342,228.31,14.0812
230.18,16.935,230.18,32.5379,230.18,22.7753,230.18,18.7547,230.18,17.6517
232.05,19.9518,232.05,31.8948,232.05,23.9008,232.05,21.7569,232.05,20.4803
233.92,22.5032,233.92,30.5609,233.92,23.9332,233.92,24.3499,233.92,22.6039
235.79,24.4308,235.79,29.2761,235.79,23.7597,235.79,25.5877,235.79,24.0683
237.66,25.872,237.66,27.8729,237.66,23.2362,237.66,26.5127,237.66,25.2915
239.53,26.5252,239.53,25.942,239.53,22.3823,239.53,26.9535,239.53,26.3124
241.4,26.9092,241.4,24.2097,241.4,21.2721,241.4,26.6965,241.4,27.0159
243.27,27.1305,243.27,21.9852,243.27,19.8417,243.27,26.4971,243.27,27.29
245.13,26.825,245.13,19.8109,245.13,18.4832,245.13,25.8902,245.13,26.825
247,26.1116,247,17.7363,247,16.7772,247,24.5953,247,26.163
248.87,25.5693,248.87,15.805,248.87,15.1,248.87,23.3042,248.87,25.5693
250.73,24.9932,250.73,13.9384,250.73,13.6812,250.73,22.2078,250.73,25.0922
252.6,24.7221,252.6,12.3852,252.6,12.3852,252.6,21.4689,252.6,25.0649
254.46,24.4583,254.46,10.8811,254.46,11.2049,254.46,20.4892,254.46,24.7968
256.33,23.9131,256.33,9.46342,256.33,10.068,256.33,19.5446,256.33,24.532
258.19,23.5698,258.19,8.10892,258.19,8.89277,258.19,18.5127,258.19,24.1327
260.06,23.0486,260.06,6.8008,260.06,7.72543,260.06,17.5616,260.06,23.6012
261.92,22.4973,261.92,5.66932,261.92,6.68006,261.92,16.2658,261.92,23.1759
263.78,21.9603,263.78,4.71556,263.78,5.7238,263.78,14.8914,263.78,22.5814
265.65,21.3062,265.65,3.84248,265.65,4.79136,265.65,13.6981,265.65,21.6957
267.51,20.6724,267.51,3.10184,267.51,3.99031,267.51,12.4074,267.51,20.799
269.37,19.8921,269.37,2.43463,269.37,3.27204,269.37,11.0742,269.37,19.8511
271.23,18.7791,271.23,1.89317,271.23,2.61857,271.23,9.69062,271.23,18.7395
273.1,17.9797,273.1,1.48033,273.1,2.12373,273.1,8.41571,273.1,17.7112
274.96,17.322,274.96,1.14206,274.96,1.72179,274.96,7.19826,274.96,16.8745
276.82,16.539,276.82,0.88466,276.82,1.37702,276.82,6.20136,276.82,16.2128
278.68,16.1755,278.68,0.684773,278.68,1.11178,278.68,5.35214,278.68,15.5027
280.54,15.9617,280.54,0.544723,280.54,0.89448,280.54,4.63235,280.54,14.8858
282.4,15.7522,282.4,0.433696,282.4,0.732947,282.4,4.02565,282.4,14.4557
284.25,15.3421,284.25,0.346736,284.25,0.589328,284.25,3.37206,284.25,13.8105
286.11,14.9751,286.11,0.279503,286.11,0.468793,286.11,2.78348,286.11,12.9991
287.97,14.3877,287.97,0.232527,287.97,0.379062,287.97,2.2449,287.97,12.2222
289.83,13.4716,289.83,0.190391,289.83,0.299824,289.83,1.79281,289.83,11.3631
291.69,12.5969,291.69,0.159641,291.69,0.238938,291.69,1.41646,291.69,10.4356
293.54,11.7918,293.54,0.131946,293.54,0.189266,293.54,1.08841,293.54,9.50701
295.4,10.7727,295.4,0.11558,295.4,0.152362,295.4,0.837191,295.4,8.5581
297.25,9.68203,297.25,0.100488,297.25,0.122757,297.25,0.628053,297.25,7.60137
299.11,8.51562,299.11,0.0866139,299.11,0.0966481,299.11,0.467777,299.11,6.69021
300.97,7.45956,300.97,0.0761791,300.97,0.0761791,300.97,0.347023,300.97,5.76797
302.82,6.4231,302.82,0.0686631,302.82,0.0603484,302.82,0.249507,302.82,4.99745
304.67,5.41833,304.67,0.0616216,304.67,0.0482904,304.67,0.17569,304.67,4.22334
306.53,4.47497,306.53,0.0569496,306.53,0.0392807,306.53,0.120999,306.53,3.5527
308.38,3.60117,308.38,0.0506916,308.38,0.0312943,308.38,0.0861402,308.38,2.93345
310.24,2.80392,310.24,0.046572,310.24,0.0255539,310.24,0.0594288,310.24,2.39199
312.09,2.1723,312.09,0.0426756,312.09,0.020454,312.09,0.04105,312.09,1.96663
313.94,1.68823,313.94,0.0421741,313.94,0.0180301,313.94,0.027513,313.94,1.62721
315.79,1.29638,315.79,0.0400937,315.79,0.0148136,315.79,0.018883,315.79,1.31432
317.64,0.982946,317.64,0.0365809,317.64,0.0119448,317.64,0.0128132,317.64,1.04584
319.5,0.728847,319.5,0.0361562,319.5,0.0101798,319.5,0.00796611,319.5,0.838716
321.35,0.537382,321.35,0.032883,321.35,0.0085743,321.35,0.00482304,321.35,0.669033
323.2,0.39099,323.2,0.0311391,323.2,0.00712255,323.2,0.00288434,323.2,0.514604
325.05,0.293365,325.05,0.0307856,325.05,0.00581959,325.05,0.00176043,325.05,0.405756
326.9,0.22118,326.9,0.0278489,326.9,0.0051929,326.9,0.00116517,326.9,0.315084
328.74,0.159823,328.74,0.0263005,328.74,0.00411079,328.74,0.0005120708,328.74,0.233049
330.59,0.11905,330.59,0.026007,330.59,0.00360075,330.59,0.0003516359,330.59,0.176437
332.44,0.0935263,332.44,0.024536,332.44,0.0031296,332.44,0.0001251839,332.44,0.139093
334.29,0.0733047,334.29,0.0242652,334.29,0.00269614,334.29,0.0001238022,334.29,0.106525
336.14,0.0557253,336.14,0.0228697,336.14,0.00229921,336.14,5.44192e-05,336.14,0.0785813
337.98,0.0363879,337.98,0.0215313,337.98,0.00162831,337.98,1.34571e-05,337.98,0.0551202
339.83,0.028166,339.83,0.0212975,339.83,0.00161063,339.83,0,339.83,0.0402656
341.68,0.0243462,341.68,0.0210675,341.68,0.00159323,341.68,0,341.68,0.032918
343.52,0.0198133,343.52,0.0208424,343.52,0.00130265,343.52,0,343.52,0.024086
345.37,0.0148978,345.37,0.0196016,345.37,0.00104387,345.37,0,345.37,0.0176428
347.21,0.0107237,347.21,0.0193944,347.21,0.00103284,347.21,0,347.21,0.0122538
349.06,0.0078852,349.06,0.018218,349.06,0.000807444,349.06,0,349.06,0.00852863
350.9,0.00604242,350.9,0.0170911,350.9,0.0007989983,350.9,0,350.9,0.00604242
352.75,0.0044597,352.75,0.0178388,352.75,0.0006053334,352.75,0,352.75,0.0044597
354.59,0.00353328,354.59,0.0167372,354.59,0.0005990674,354.59,0,354.59,0.00353328
356.43,0.002722492,356.43,0.0156816,356.43,0.0004355987,356.43,0,356.43,0.00237159
358.27,0.0023473,358.27,0.0155209,358.27,0.0004311359,358.27,0.000011976,358.27,0.0014491
360.12,0.0020032,360.12,0.0145203,360.12,0.0004267177,360.12,1.18533e-05,360.12,0.0009601147
361.96,0.00168956,361.96,0.014373,361.96,0.0004223903,361.96,1.17331e-05,361.96,0.0007509161
363.8,0.00140538,363.8,0.0150526,363.8,0.0004181284,363.8,1.16147e-05,363.8,0.0005691193
365.64,0.00139127,365.64,0.0140851,365.64,0.0004139308,365.64,1.14981e-05,365.64,0.0004139308
367.48,0.00113832,367.48,0.0139444,367.48,0.0002845805,367.48,1.13832e-05,367.48,0.0002845805
369.32,0.00112701,369.32,0.0138058,369.32,0.000281752,369.32,1.12701e-05,369.32,0.0001803213
371.16,0.0009038478,371.16,0.0128994,371.16,0.0002789654,371.16,4.46345e-05,371.16,0.0001004275
373,0.0008949524,373,0.0127724,373,0.0002762199,373,4.41952e-05,373,9.94392e-05
374.84,0.0008861878,374.84,0.0126473,374.84,0.0001750494,374.84,4.37624e-05,374.84,4.37624e-05
376.68,0.0008775513,376.68,0.0125241,376.68,0.0002708492,376.68,4.33359e-05,376.68,4.33359e-05
378.51,0.0008690863,378.51,0.0131436,378.51,0.0002682365,378.51,4.29178e-05,378.51,4.29178e-05
380.35,0.000860698,380.35,0.0130167,380.35,0.0002656475,380.35,4.25036e-05,380.35,4.25036e-05
382.19,0.0006735253,382.19,0.0121656,382.19,0.0001683813,382.19,4.20953e-05,382.19,1.05238e-05
384.03,0.0006670867,384.03,0.0120493,384.03,0.0001667717,384.03,4.16929e-05,384.03,1.04232e-05
385.86,0.0005059052,385.86,0.0112435,385.86,0.0001651935,385.86,4.12984e-05,385.86,1.03246e-05
387.7,0.0005011146,387.7,0.011137,387.7,0.0001636293,387.7,4.09073e-05,387.7,1.02268e-05
389.53,0.0004964172,389.53,0.01103262,389.53,0.0001620954,389.53,4.05239e-05,389.53,0
391.37,0.0004917605,391.37,0.0109291,391.37,0.0001605748,391.37,4.01437e-05,391.37,0
393.2,0.0006363346,393.2,0.0114938,393.2,0.0001590837,393.2,3.97709e-05,393.2,0
395.04,0.0004826658,395.04,0.011387,395.04,0.0001576052,395.04,3.94013e-05,395.04,0
396.87,0.0004782248,396.87,0.0112822,396.87,0.0001561551,396.87,3.90388e-05,396.87,0
398.71,0.0004738211,398.71,0.0111783,398.71,0.0001547171,398.71,3.86793e-05,398.71,0
400.54,0.0004695014,400.54,0.0104344,400.54,0.0001533066,400.54,3.83266e-05,400.54,0
402.37,0.0003418093,402.37,0.00972258,402.37,8.54523e-05,402.37,3.79788e-05,402.37,0
404.2,0.0003387213,404.2,0.00963474,404.2,8.46803e-05,404.2,8.46803e-05,404.2,0
406.04,0.0002330961,406.04,0.00896021,406.04,8.39146e-05,406.04,8.39146e-05,406.04,0
407.87,0.0002310091,407.87,0.00831633,407.87,8.31633e-05,407.87,8.31633e-05,407.87,0
409.7,0.000146528,409.7,0.00880084,409.7,0.000082422,409.7,0.000082422,409.7,0
411.53,0.0002269183,411.53,0.00872274,411.53,8.16906e-05,411.53,8.16906e-05,411.53,0
413.36,0.0002249136,413.36,0.00979724,413.36,8.09689e-05,413.36,8.09689e-05,413.36,0
415.19,0.0002229353,415.19,0.00971106,415.19,8.02567e-05,415.19,8.02567e-05,415.19,0
417.02,0.000220983,417.02,0.00962602,417.02,7.95539e-05,417.02,7.95539e-05,417.02,0
418.85,0.0002190562,418.85,0.00954209,418.85,7.88602e-05,418.85,7.88602e-05,418.85,0
420.67,0.0002171648,420.67,0.00889507,420.67,7.81793e-05,420.67,3.47464e-05,420.67,0
422.5,0.0003100143,422.5,0.00881818,422.5,7.75036e-05,422.5,0.000034446,422.5,0
424.33,0.000307346,424.33,0.00874229,424.33,7.68365e-05,424.33,3.41496e-05,424.33,0
426.16,0.0003047121,426.16,0.00813412,426.16,0.000076178,426.16,0.000076178,426.16,0
427.98,0.000302126,427.98,0.00806509,427.98,7.55315e-05,427.98,3.35696e-05,427.98,0
429.81,0.0002995588,429.81,0.00748897,429.81,7.48897e-05,429.81,3.32843e-05,429.81,0
431.64,0.0002970241,431.64,0.00646853,431.64,0.000074256,431.64,3.30027e-05,431.64,0
433.46,0.0002945351,433.46,0.00596434,433.46,3.27261e-05,433.46,7.36338e-05,433.46,0
435.29,0.0002028221,435.29,0.00591429,435.29,3.24515e-05,435.29,7.30159e-05,435.29,0
437.11,0.0002896367,437.11,0.00586514,437.11,7.24092e-05,437.11,7.24092e-05,437.11,0
438.94,0.0002872267,438.94,0.00625516,438.94,7.18067e-05,438.94,3.19141e-05,438.94,0
440.76,0.0002848595,440.76,0.00620361,440.76,7.12149e-05,440.76,3.16511e-05,440.76,0
442.58,0.0002825215,442.58,0.00572106,442.58,3.13913e-05,442.58,3.13913e-05,442.58,0
444.41,0.0002801996,444.41,0.00567404,444.41,3.11333e-05,444.41,3.11333e-05,444.41,0
446.23,0.0002779186,446.23,0.00521869,446.23,3.08798e-05,446.23,3.08798e-05,446.23,0
448.05,0.0002756653,448.05,0.00517638,448.05,3.06295e-05,448.05,3.06295e-05,448.05,0
449.87,0.0002734394,449.87,0.00513458,449.87,3.03822e-05,449.87,3.03822e-05,449.87,0
451.69,0.0002712403,451.69,0.00509329,451.69,3.01378e-05,451.69,3.01378e-05,451.69,0
453.52,0.0002690557,453.52,0.00505227,453.52,2.98951e-05,453.52,2.98951e-05,453.52,0
455.34,0.0002669092,455.34,0.00540491,455.34,2.96566e-05,455.34,2.96566e-05,455.34,0
457.16,0.0002647882,457.16,0.00497213,457.16,2.94209e-05,457.16,2.94209e-05,457.16,0
458.98,0.0002626924,458.98,0.00493278,458.98,0.000029188,458.98,0.000029188,458.98,0
460.8,0.0002606215,460.8,0.00489389,460.8,2.89579e-05,460.8,2.89579e-05,460.8,7.23948e-06
462.61,0.000258586,462.61,0.00485567,462.61,2.87318e-05,462.61,2.87318e-05,462.61,7.18295e-06
464.43,0.0002565633,464.43,0.00519541,464.43,0.000028507,464.43,0.000028507,464.43,0
466.25,0.0001767807,466.25,0.005154926,466.25,2.82849e-05,466.25,2.82849e-05,466.25,0
468.07,0.0001754086,468.07,0.00511492,468.07,2.80654e-05,468.07,2.80654e-05,468.07,7.01635e-06
469.89,0.0001740525,469.89,0.00470638,469.89,2.78484e-05,469.89,2.78484e-05,469.89,6.9621e-06
471.7,0.0001727193,471.7,0.00467033,471.7,2.76351e-05,471.7,6.21789e-05,471.7,6.90877e-06
473.52,0.0001713941,473.52,0.0046345,473.52,2.74231e-05,473.52,6.17019e-05,473.52,6.85577e-06
475.33,0.0001088584,475.33,0.00459927,475.33,2.72146e-05,475.33,6.12329e-05,475.33,6.80365e-06
477.15,0.0001080296,477.15,0.00456425,477.15,2.70074e-05,477.15,6.07666e-05,477.15,6.75185e-06
478.96,0.0001072146,478.96,0.00452982,478.96,2.68037e-05,478.96,6.03082e-05,478.96,6.70092e-06
480.78,0.0001064045,480.78,0.00449559,480.78,2.66011e-05,480.78,5.98525e-05,480.78,6.65028e-06
482.59,0.0001056078,482.59,0.00481175,482.59,2.64019e-05,482.59,5.94044e-05,482.59,6.60049e-06
484.41,0.0001048157,484.41,0.00477567,484.41,2.62039e-05,484.41,5.89588e-05,484.41,0.000006551
486.22,0.0001040368,486.22,0.00439555,486.22,2.60092e-05,486.22,5.85207e-05,486.22,6.5023e-06
488.03,0.0001032665,488.03,0.00436301,488.03,2.58166e-05,488.03,5.80874e-05,488.03,6.45416e-06
489.85,0.0001025006,489.85,0.00433065,489.85,2.56251e-05,489.85,5.76566e-05,489.85,6.40629e-06
491.66,0.0001017473,491.66,0.00429882,491.66,6.35921e-06,491.66,5.72328e-05,491.66,6.35921e-06
493.47,0.0001010023,493.47,0.00426735,493.47,2.52506e-05,493.47,5.68138e-05,493.47,6.31264e-06
495.28,0.0001002654,495.28,0.00423621,495.28,6.26659e-06,495.28,5.63993e-05,495.28,6.26659e-06
497.09,9.95365e-05,497.09,0.003888146,497.09,0.000006221,497.09,5.59893e-05,497.09,0.000006221
498.9,5.55838e-05,498.9,0.00385998,498.9,0.000006176,498.9,5.55838e-05,498.9,0.000006176
500.71,5.51827e-05,500.71,0.00383213,500.71,6.13141e-06,500.71,5.51827e-05,500.71,6.13141e-06
502.52,9.73971e-05,502.52,0.00380457,502.52,6.08732e-06,502.52,5.47859e-05,502.52,6.08732e-06
504.33,9.66992e-05,504.33,0.00377731,504.33,6.0437e-06,504.33,5.43933e-05,504.33,6.0437e-06
506.14,0.000054005,506.14,0.00375035,506.14,6.00055e-06,506.14,0.000054005,506.14,6.00055e-06
507.95,9.53258e-05,507.95,0.00372367,507.95,5.95787e-06,507.95,5.36208e-05,507.95,5.95787e-06
509.76,5.32407e-05,509.76,0.00369727,509.76,5.91563e-06,509.76,5.32407e-05,509.76,5.91563e-06
511.56,5.28667e-05,511.56,0.0036713,511.56,5.87407e-06,511.56,5.28667e-05,511.56,5.87407e-06
513.37,5.24945e-05,513.37,0.00364545,513.37,5.83273e-06,513.37,5.24945e-05,513.37,5.83273e-06
515.18,5.21263e-05,515.18,0.00361988,515.18,5.79181e-06,515.18,5.21263e-05,515.18,5.79181e-06
516.98,0.000051764,516.98,0.00359472,516.98,5.75155e-06,516.98,0.000051764,516.98,5.75155e-06
518.79,5.14034e-05,518.79,0.00356968,518.79,5.71149e-06,518.79,5.14034e-05,518.79,5.71149e-06
520.59,5.10486e-05,520.59,0.00383431,520.59,5.67206e-06,520.59,5.10486e-05,520.59,5.67206e-06
522.4,5.06954e-05,522.4,0.00380779,522.4,5.63283e-06,522.4,5.06954e-05,522.4,5.63283e-06
524.2,5.03479e-05,524.2,0.00349638,524.2,5.59421e-06,524.2,5.03479e-05,524.2,5.59421e-06
526.01,0.000050002,526.01,0.003472359,526.01,5.55577e-06,526.01,0.000050002,526.01,5.55577e-06
527.81,4.96615e-05,527.81,0.00344872,527.81,5.51795e-06,527.81,4.96615e-05,527.81,5.51795e-06
529.61,4.93245e-05,529.61,0.003425313,529.61,5.4805e-06,529.61,4.93245e-05,529.61,5.4805e-06
531.42,4.89891e-05,531.42,0.00340202,531.42,5.44323e-06,531.42,4.89891e-05,531.42,5.44323e-06
533.22,4.86589e-05,533.22,0.00337909,533.22,5.40654e-06,533.22,4.86589e-05,533.22,5.40654e-06
535.02,0.000048332,535.02,0.00335639,535.02,5.37023e-06,535.02,0.000048332,535.02,5.37023e-06
536.82,4.80085e-05,536.82,0.00333392,536.82,5.33427e-06,536.82,4.80085e-05,536.82,5.33427e-06
538.62,4.76881e-05,538.62,0.00358191,538.62,5.29868e-06,538.62,4.76881e-05,538.62,5.29868e-06
540.43,4.73692e-05,540.43,0.003289529,540.43,5.26325e-06,540.43,4.73692e-05,540.43,5.26325e-06
542.23,4.70552e-05,542.23,0.00326773,542.23,5.22836e-06,542.23,4.70552e-05,542.23,5.22836e-06
544.03,4.67444e-05,544.03,0.00324614,544.03,5.19382e-06,544.03,4.67444e-05,544.03,5.19382e-06
545.82,4.64383e-05,545.82,0.00348803,545.82,5.15981e-06,545.82,4.64383e-05,545.82,5.15981e-06
547.62,2.05038e-05,547.62,0.003203716,547.62,5.12595e-06,547.62,4.61335e-05,547.62,5.12595e-06
549.42,2.03697e-05,549.42,0.00318276,549.42,5.09241e-06,549.42,4.58317e-05,549.42,5.09241e-06
551.22,4.55329e-05,551.22,0.003162006,551.22,5.05921e-06,551.22,4.55329e-05,551.22,5.05921e-06
553.02,0.000045237,553.02,0.00314146,553.02,5.02633e-06,553.02,0.000045237,553.02,5.02633e-06
554.81,4.49455e-05,554.81,0.00312122,554.81,4.99395e-06,554.81,4.49455e-05,554.81,4.99395e-06
556.61,4.46553e-05,556.61,0.00310106,556.61,4.9617e-06,556.61,4.46553e-05,556.61,4.9617e-06
558.41,4.43679e-05,558.41,0.0030811,558.41,4.92977e-06,558.41,4.43679e-05,558.41,4.92977e-06
560.2,4.40848e-05,560.2,0.00306144,560.2,4.89831e-06,560.2,4.40848e-05,560.2,4.89831e-06
562,4.38029e-05,562,0.00304187,562,0.000004867,562,4.38029e-05,562,0.000004867
563.79,4.35252e-05,563.79,0.00326922,563.79,4.83613e-06,563.79,4.35252e-05,563.79,4.83613e-06
565.59,1.92216e-05,565.59,0.00300337,565.59,4.8054e-06,565.59,4.32486e-05,565.59,4.8054e-06
567.38,1.91005e-05,567.38,0.00322798,567.38,4.77512e-06,567.38,4.29761e-05,567.38,4.77512e-06
569.18,1.89799e-05,569.18,0.00296561,569.18,0.000004745,569.18,4.27047e-05,569.18,0.000004745
570.97,4.24374e-05,570.97,0.00294704,570.97,4.71526e-06,570.97,4.24374e-05,570.97,4.71526e-06
572.76,4.21725e-05,572.76,0.00292865,572.76,4.68584e-06,572.76,4.21725e-05,572.76,4.68584e-06
574.56,4.19087e-05,574.56,0.00291033,574.56,4.65652e-06,574.56,4.19087e-05,574.56,4.65652e-06
576.35,4.16488e-05,576.35,0.00289228,576.35,4.62764e-06,576.35,4.16488e-05,576.35,4.62764e-06
578.14,4.13913e-05,578.14,0.0028744,578.14,0.000004599,578.14,4.13913e-05,578.14,0.000004599
579.93,1.82827e-05,579.93,0.00285668,579.93,4.57069e-06,579.93,4.11362e-05,579.93,4.57069e-06
581.72,1.81704e-05,581.72,0.00283913,581.72,4.5426e-06,581.72,4.08834e-05,581.72,4.5426e-06
583.51,1.80591e-05,583.51,0.00282173,583.51,4.51477e-06,583.51,0.000040633,583.51,4.51477e-06
585.3,4.03848e-05,585.3,0.0028045,585.3,4.4872e-06,585.3,4.03848e-05,585.3,4.4872e-06
587.09,4.01389e-05,587.09,0.00301488,587.09,4.45988e-06,587.09,4.01389e-05,587.09,4.45988e-06
588.88,1.77312e-05,588.88,0.00299658,588.88,4.43281e-06,588.88,3.98953e-05,588.88,4.43281e-06
590.67,1.76239e-05,590.67,0.00275374,590.67,0.000004406,590.67,3.96538e-05,590.67,0.000004406
592.46,1.75176e-05,592.46,0.00273712,592.46,4.3794e-06,592.46,3.94146e-05,592.46,4.3794e-06
594.25,3.91775e-05,594.25,0.00294267,594.25,4.35306e-06,594.25,3.91775e-05,594.25,4.35306e-06
596.03,3.89438e-05,596.03,0.00292512,596.03,4.32709e-06,596.03,3.89438e-05,596.03,4.32709e-06
597.82,0.000038711,597.82,0.00290763,597.82,4.30122e-06,597.82,0.000038711,597.82,4.30122e-06
599.61,3.84802e-05,599.61,0.00289029,599.61,4.27558e-06,599.61,3.84802e-05,599.61,4.27558e-06
601.39,3.82528e-05,601.39,0.00287321,601.39,4.25031e-06,601.39,3.82528e-05,601.39,4.25031e-06
603.18,1.69005e-05,603.18,0.00285618,603.18,4.22512e-06,603.18,3.80261e-05,603.18,4.22512e-06
604.96,1.68012e-05,604.96,0.0028394,604.96,4.20029e-06,604.96,3.78026e-05,604.96,4.20029e-06
606.75,1.67022e-05,606.75,0.00260971,606.75,4.17554e-06,606.75,3.75799e-05,606.75,4.17554e-06
608.53,1.66046e-05,608.53,0.00259447,608.53,4.15115e-06,608.53,3.73604e-05,608.53,4.15115e-06
610.32,1.65074e-05,610.32,0.00257927,610.32,4.12684e-06,610.32,3.71415e-05,610.32,4.12684e-06
612.1,3.69258e-05,612.1,0.00256429,612.1,4.10287e-06,612.1,3.69258e-05,612.1,4.10287e-06
613.88,1.63164e-05,613.88,0.002549445,613.88,4.07911e-06,613.88,0.000036712,613.88,4.07911e-06
615.66,1.62222e-05,615.66,0.00253472,615.66,4.05556e-06,615.66,0.0000365,615.66,4.05556e-06
617.45,1.61283e-05,617.45,0.00252005,617.45,4.03208e-06,617.45,3.62887e-05,617.45,4.03208e-06
619.23,1.60357e-05,619.23,0.00250558,619.23,4.00893e-06,619.23,3.60804e-05,619.23,4.00893e-06
621.01,1.59439e-05,621.01,0.00249124,621.01,0.000003986,621.01,3.58738e-05,621.01,0.000003986
622.79,1.58529e-05,622.79,0.00247702,622.79,3.96323e-06,622.79,3.56691e-05,622.79,3.96323e-06
624.57,1.57627e-05,624.57,0.00246292,624.57,3.94067e-06,624.57,3.54661e-05,624.57,3.94067e-06
626.35,1.56732e-05,626.35,0.00244894,626.35,3.91831e-06,626.35,3.52648e-05,626.35,3.91831e-06
628.13,1.55845e-05,628.13,0.00243508,628.13,3.89613e-06,628.13,3.50652e-05,628.13,3.89613e-06
629.91,1.54966e-05,629.91,0.00242134,629.91,3.87414e-06,629.91,3.48673e-05,629.91,3.87414e-06
631.69,1.54094e-05,631.69,0.00240771,631.69,3.85234e-06,631.69,3.46711e-05,631.69,3.85234e-06
633.47,1.53229e-05,633.47,0.0023942,633.47,3.83072e-06,633.47,3.44765e-05,633.47,3.83072e-06
635.24,1.52376e-05,635.24,0.00238088,635.24,3.8094e-06,635.24,3.42846e-05,635.24,3.8094e-06
637.02,3.40933e-05,637.02,0.00236759,637.02,3.78814e-06,637.02,3.40933e-05,637.02,3.78814e-06
638.8,3.39036e-05,638.8,0.002546534,638.8,3.76706e-06,638.8,3.39036e-05,638.8,3.76706e-06
640.58,3.37154e-05,640.58,0.0025324,640.58,3.74616e-06,640.58,3.37154e-05,640.58,3.74616e-06
642.35,3.35299e-05,642.35,0.00251846,642.35,3.72554e-06,642.35,3.35299e-05,642.35,3.72554e-06
644.13,3.33448e-05,644.13,0.00231561,644.13,0.000003705,644.13,3.33448e-05,644.13,0.000003705
645.9,1.47388e-05,645.9,0.002302937,645.9,3.6847e-06,645.9,3.31623e-05,645.9,3.6847e-06
647.68,1.46579e-05,647.68,0.0022903,647.68,3.66447e-06,647.68,3.29803e-05,647.68,3.66447e-06
649.45,1.45781e-05,649.45,0.0024637,649.45,3.64453e-06,649.45,3.28007e-05,649.45,3.64453e-06
651.23,1.44985e-05,651.23,0.00226539,651.23,3.62463e-06,651.23,3.26217e-05,651.23,3.62463e-06
653,0.00001442,653,0.00225313,653,0.000003605,653,3.24451e-05,653,0.000003605
654.77,1.43422e-05,654.77,0.00242383,654.77,3.58554e-06,654.77,3.22699e-05,654.77,3.58554e-06
656.54,3.20961e-05,656.54,0.00241078,656.54,3.56624e-06,656.54,3.20961e-05,656.54,3.56624e-06
658.32,3.19228e-05,658.32,0.00239776,658.32,0.000003547,658.32,3.19228e-05,658.32,0.000003547
660.09,1.41119e-05,660.09,0.00238492,660.09,0.000003528,660.09,3.17518e-05,660.09,0.000003528
661.86,1.40365e-05,661.86,0.00219321,661.86,3.50914e-06,661.86,3.15822e-05,661.86,3.50914e-06
663.63,1.39618e-05,663.63,0.00235954,663.63,3.49044e-06,663.63,0.000031414,663.63,3.49044e-06
665.4,1.38876e-05,665.4,0.00216994,665.4,3.4719e-06,665.4,3.12471e-05,665.4,3.4719e-06
667.17,0.000013814,667.17,0.00215844,667.17,3.4535e-06,667.17,3.10815e-05,667.17,3.4535e-06
668.94,0.000013741,668.94,0.00214703,668.94,3.43525e-06,668.94,3.09172e-05,668.94,3.43525e-06
670.71,1.36686e-05,670.71,0.00213571,670.71,3.41714e-06,670.71,3.07543e-05,670.71,3.41714e-06
672.48,1.35967e-05,672.48,0.002124486,672.48,3.39918e-06,672.48,3.05926e-05,672.48,3.39918e-06
674.25,1.35254e-05,674.25,0.00211335,674.25,3.38135e-06,674.25,3.04322e-05,674.25,3.38135e-06
676.01,1.34551e-05,676.01,0.00210236,676.01,3.36377e-06,676.01,3.02739e-05,676.01,3.36377e-06
677.78,1.33849e-05,677.78,0.00209139,677.78,3.34622e-06,677.78,0.000030116,677.78,3.34622e-06
679.55,1.33153e-05,679.55,0.00208051,679.55,3.32882e-06,679.55,2.99593e-05,679.55,3.32882e-06
681.31,1.32466e-05,681.31,0.00206977,681.31,3.31164e-06,681.31,2.98048e-05,681.31,3.31164e-06
683.08,0.000013178,683.08,0.00205906,683.08,3.2945e-06,683.08,2.96505e-05,683.08,3.2945e-06
684.85,0.00001311,684.85,0.00204843,684.85,3.27749e-06,684.85,2.94974e-05,684.85,3.27749e-06
686.61,1.30428e-05,686.61,0.00203794,686.61,3.26071e-06,686.61,2.93464e-05,686.61,3.26071e-06
688.38,1.29759e-05,688.38,0.00202748,688.38,0.000003244,688.38,2.91957e-05,688.38,0.000003244
690.14,1.29098e-05,690.14,0.00201715,690.14,3.22744e-06,690.14,0.000029047,690.14,3.22744e-06
691.9,1.28442e-05,691.9,0.002006901,691.9,0.000003211,691.9,2.88994e-05,691.9,0.000003211
693.67,1.27787e-05,693.67,0.00199667,693.67,3.19468e-06,693.67,2.87521e-05,693.67,3.19468e-06
695.43,1.27141e-05,695.43,0.00198658,695.43,3.17853e-06,695.43,2.86067e-05,695.43,3.17853e-06
697.19,0.00001265,697.19,0.00197656,697.19,3.1625e-06,697.19,2.84625e-05,697.19,3.1625e-06
698.95,1.25864e-05,698.95,0.00196662,698.95,3.14659e-06,698.95,2.83193e-05,698.95,3.14659e-06
700.72,1.25229e-05,700.72,0.0019567,700.72,3.13072e-06,700.72,2.81764e-05,700.72,3.13072e-06
702.48,1.24602e-05,702.48,0.0019469,702.48,0.000003115,702.48,2.80354e-05,702.48,0.000003115
704.24,0.000012398,704.24,0.00193719,704.24,3.0995e-06,704.24,2.78955e-05,704.24,3.0995e-06
706,1.23363e-05,706,0.00192754,706,3.08406e-06,706,0.000049345,706,3.08406e-06
707.76,0.000012275,707.76,0.00191796,707.76,3.06874e-06,707.76,4.90999e-05,707.76,3.06874e-06
709.52,1.22142e-05,709.52,0.00190846,709.52,3.05354e-06,709.52,4.88566e-05,709.52,3.05354e-06
711.28,1.21538e-05,711.28,0.00189903,711.28,3.03845e-06,711.28,4.86151e-05,711.28,3.03845e-06
713.03,1.20942e-05,713.03,0.00188972,713.03,3.02355e-06,713.03,4.83768e-05,713.03,3.02355e-06
714.79,1.20347e-05,714.79,0.00188042,714.79,3.00868e-06,714.79,4.81388e-05,714.79,3.00868e-06
716.55,1.19757e-05,716.55,0.0018712,716.55,2.99392e-06,716.55,4.79027e-05,716.55,2.99392e-06
718.31,1.19171e-05,718.31,0.00186204,718.31,2.97926e-06,718.31,2.68134e-05,718.31,2.97926e-06
720.06,1.18592e-05,720.06,0.001853,720.06,2.9648e-06,720.06,2.66832e-05,720.06,2.9648e-06
721.82,1.18014e-05,721.82,0.00169941,721.82,2.95036e-06,721.82,2.65532e-05,721.82,2.95036e-06
723.58,1.17441e-05,723.58,0.00183501,723.58,0.000002936,723.58,2.64242e-05,723.58,0.000002936
725.33,1.16875e-05,725.33,0.00182617,725.33,2.92187e-06,725.33,0.00004675,725.33,2.92187e-06
727.09,0.000011631,727.09,0.00181734,727.09,2.90774e-06,727.09,4.65239e-05,727.09,2.90774e-06
728.84,1.15752e-05,728.84,0.00180862,728.84,2.8938e-06,728.84,4.63008e-05,728.84,2.8938e-06
730.6,1.15195e-05,730.6,0.00165881,730.6,2.87987e-06,730.6,0.000046078,730.6,2.87987e-06
732.35,1.14645e-05,732.35,0.00165089,732.35,2.86613e-06,732.35,0.000045858,732.35,2.86613e-06
734.1,1.14099e-05,734.1,0.00164303,734.1,2.85248e-06,734.1,4.56396e-05,734.1,2.85248e-06
735.85,1.13557e-05,735.85,0.00163522,735.85,2.83893e-06,735.85,4.54228e-05,735.85,2.83893e-06
737.61,1.13016e-05,737.61,0.00162743,737.61,2.82539e-06,737.61,4.52063e-05,737.61,2.82539e-06
739.36,1.12481e-05,739.36,0.00161973,739.36,0.000002812,739.36,4.49926e-05,739.36,0.000002812
741.11,1.11951e-05,741.11,0.00161209,741.11,2.79877e-06,741.11,4.47803e-05,741.11,2.79877e-06
742.86,1.11424e-05,742.86,0.00160451,742.86,2.7856e-06,742.86,4.45696e-05,742.86,2.7856e-06
744.61,1.10901e-05,744.61,0.00173283,744.61,2.77252e-06,744.61,4.43603e-05,744.61,2.77252e-06
746.36,1.10381e-05,746.36,0.00172471,746.36,2.75953e-06,746.36,4.41526e-05,746.36,2.75953e-06
748.11,1.09866e-05,748.11,0.00158206,748.11,2.74664e-06,748.11,4.39462e-05,748.11,2.74664e-06
749.86,1.09353e-05,749.86,0.00157469,749.86,2.73383e-06,749.86,4.37414e-05,749.86,2.73383e-06
751.61,1.08845e-05,751.61,0.00156736,751.61,2.72112e-06,751.61,4.35379e-05,751.61,2.72112e-06
753.36,0.000010834,753.36,0.00156009,753.36,2.70849e-06,753.36,2.43764e-05,753.36,2.70849e-06
755.11,1.07838e-05,755.11,0.00155287,755.11,0.000002696,755.11,4.31352e-05,755.11,0.000002696
756.85,1.07343e-05,756.85,0.00154574,756.85,2.68357e-06,756.85,4.29371e-05,756.85,2.68357e-06
758.6,1.06848e-05,758.6,0.001538613,758.6,2.6712e-06,758.6,4.27393e-05,758.6,2.6712e-06
760.35,1.06357e-05,760.35,0.00153154,760.35,2.65892e-06,760.35,4.25427e-05,760.35,2.65892e-06
762.09,1.05872e-05,762.09,0.00152455,762.09,2.64679e-06,762.09,4.23487e-05,762.09,2.64679e-06
763.84,1.05387e-05,763.84,0.00151758,763.84,2.63468e-06,763.84,4.21549e-05,763.84,2.63468e-06
765.58,1.04909e-05,765.58,0.001510685,765.58,2.62272e-06,765.58,4.19635e-05,765.58,2.62272e-06
767.33,1.04431e-05,767.33,0.0015038,767.33,2.61077e-06,767.33,4.17723e-05,767.33,2.61077e-06
769.07,1.03959e-05,769.07,0.00149701,769.07,0.000002599,769.07,4.15835e-05,769.07,0.000002599
770.82,1.03487e-05,770.82,0.00149022,770.82,2.58718e-06,770.82,4.13949e-05,770.82,2.58718e-06
772.56,1.03022e-05,772.56,0.00148351,772.56,2.57554e-06,772.56,4.12086e-05,772.56,2.57554e-06
774.3,1.02559e-05,774.3,0.00147685,774.3,0.000002564,774.3,4.10236e-05,774.3,0.000002564
776.04,0.00001021,776.04,0.00135027,776.04,2.55249e-06,776.04,4.08399e-05,776.04,2.55249e-06
777.79,1.01641e-05,777.79,0.001344199,777.79,0.000002541,777.79,4.06563e-05,777.79,0.000002541
779.53,1.01188e-05,779.53,0.0013382,779.53,2.52969e-06,779.53,0.000040475,779.53,2.52969e-06
781.27,1.00737e-05,781.27,0.00133225,781.27,2.51843e-06,781.27,4.02949e-05,781.27,2.51843e-06
783.01,0.000010029,783.01,0.00132634,783.01,2.50725e-06,783.01,0.000040116,783.01,2.50725e-06
784.75,9.98458e-06,784.75,0.00132046,784.75,2.49615e-06,784.75,3.99383e-05,784.75,2.49615e-06
786.49,9.94045e-06,786.49,0.00143143,786.49,2.48511e-06,786.49,3.97618e-05,786.49,2.48511e-06
788.23,9.89661e-06,788.23,0.00142511,788.23,2.47415e-06,788.23,3.95865e-05,788.23,2.47415e-06
789.97,2.46327e-06,789.97,0.001303068,789.97,2.46327e-06,789.97,3.94123e-05,789.97,2.46327e-06
791.71,9.8098e-06,791.71,0.00141261,791.71,2.45245e-06,791.71,3.92392e-05,791.71,2.45245e-06
793.44,9.76707e-06,793.44,0.00140646,793.44,2.44177e-06,793.44,3.90683e-05,793.44,2.44177e-06
795.18,9.72437e-06,795.18,0.00140031,795.18,2.43109e-06,795.18,3.88975e-05,795.18,2.43109e-06
796.92,0.000009682,796.92,0.0013942,796.92,2.42049e-06,796.92,3.87278e-05,796.92,2.42049e-06
798.66,9.63982e-06,798.66,0.00138813,798.66,0.00000241,798.66,3.85593e-05,798.66,0.00000241
800.39,9.59819e-06,800.39,0.00138214,800.39,2.39955e-06,800.39,3.83928e-05,800.39,2.39955e-06
802.13,2.38915e-06,802.13,0.00137615,802.13,2.38915e-06,802.13,3.82264e-05,802.13,2.38915e-06
803.86,2.37888e-06,803.86,0.00137023,803.86,2.37888e-06,803.86,0.000038062,803.86,2.37888e-06
805.6,2.36861e-06,805.6,0.001253,805.6,2.36861e-06,805.6,3.78978e-05,805.6,2.36861e-06
807.33,2.35847e-06,807.33,0.00124763,807.33,2.35847e-06,807.33,3.77355e-05,807.33,2.35847e-06
809.07,2.34834e-06,809.07,0.00124227,809.07,2.34834e-06,809.07,3.75734e-05,809.07,2.34834e-06
810.8,2.33833e-06,810.8,0.00123697,810.8,2.33833e-06,810.8,3.74132e-05,810.8,2.33833e-06
812.53,2.32838e-06,812.53,0.00123171,812.53,2.32838e-06,812.53,3.72541e-05,812.53,2.32838e-06
814.27,9.27376e-06,814.27,0.00122645,814.27,2.31844e-06,814.27,0.000037095,814.27,2.31844e-06
816,2.30862e-06,816,0.00122126,816,2.30862e-06,816,3.69379e-05,816,2.30862e-06
817.73,2.29886e-06,817.73,0.001324144,817.73,2.29886e-06,817.73,3.67818e-05,817.73,2.29886e-06
819.46,9.15666e-06,819.46,0.001318559,819.46,2.28916e-06,819.46,3.66266e-05,819.46,2.28916e-06
821.19,2.27953e-06,821.19,0.00131301,821.19,2.27953e-06,821.19,3.64725e-05,821.19,2.27953e-06
822.92,0.00000227,822.92,0.00130749,822.92,0.00000227,822.92,3.63193e-05,822.92,0.00000227
824.65,2.26044e-06,824.65,0.00130201,824.65,2.26044e-06,824.65,3.61671e-05,824.65,2.26044e-06
826.38,9.00395e-06,826.38,0.00119077,826.38,0.000002251,826.38,3.60158e-05,826.38,0.000002251
828.11,8.96637e-06,828.11,0.00129116,828.11,2.24159e-06,828.11,3.58655e-05,828.11,2.24159e-06
829.84,2.23226e-06,829.84,0.00128578,829.84,2.23226e-06,829.84,3.57161e-05,829.84,2.23226e-06
831.57,0.000002223,831.57,0.00128043,831.57,0.000002223,831.57,3.55676e-05,831.57,0.000002223
833.29,2.21381e-06,833.29,0.00117111,833.29,2.21381e-06,833.29,0.000035421,833.29,2.21381e-06
835.02,2.20465e-06,835.02,0.00116626,835.02,2.20465e-06,835.02,3.52743e-05,835.02,2.20465e-06
836.75,2.19554e-06,836.75,0.00126463,836.75,2.19554e-06,836.75,3.51286e-05,836.75,2.19554e-06
838.47,2.18654e-06,838.47,0.00125945,838.47,2.18654e-06,838.47,3.49846e-05,838.47,2.18654e-06
840.2,2.17755e-06,840.2,0.00125427,840.2,2.17755e-06,840.2,3.48407e-05,840.2,2.17755e-06
841.93,8.67442e-06,841.93,0.001249117,841.93,2.16861e-06,841.93,3.46977e-05,841.93,2.16861e-06
843.65,8.63909e-06,843.65,0.00124403,843.65,2.15977e-06,843.65,3.45564e-05,843.65,2.15977e-06
845.37,0.000008604,845.37,0.00123897,845.37,0.000002151,845.37,3.44159e-05,845.37,0.000002151
847.1,2.14222e-06,847.1,0.00113323,847.1,2.14222e-06,847.1,3.42755e-05,847.1,2.14222e-06
848.82,8.53417e-06,848.82,0.00112864,848.82,2.13354e-06,848.82,3.41367e-05,848.82,2.13354e-06
850.55,8.49949e-06,850.55,0.00112406,850.55,2.12487e-06,850.55,0.000033998,850.55,2.12487e-06
852.27,8.46522e-06,852.27,0.00111953,852.27,2.1163e-06,852.27,3.38609e-05,852.27,2.1163e-06
853.99,8.43115e-06,853.99,0.00111502,853.99,2.10779e-06,853.99,3.37246e-05,853.99,2.10779e-06
855.71,8.39729e-06,855.71,0.00111054,855.71,2.09932e-06,855.71,3.35892e-05,855.71,2.09932e-06
857.43,8.36364e-06,857.43,0.00110609,857.43,2.09091e-06,857.43,3.34546e-05,857.43,2.09091e-06
859.15,8.33018e-06,859.15,0.00119955,859.15,2.08255e-06,859.15,3.33207e-05,859.15,2.08255e-06
860.87,2.07423e-06,860.87,0.001097269,860.87,2.07423e-06,860.87,3.31877e-05,860.87,2.07423e-06
862.59,0.000002066,862.59,0.0010929,862.59,0.000002066,862.59,3.30555e-05,862.59,0.000002066
864.31,2.05775e-06,864.31,0.001088552,864.31,2.05775e-06,864.31,3.29241e-05,864.31,2.05775e-06
866.03,2.04959e-06,866.03,0.00118056,866.03,2.04959e-06,866.03,3.27934e-05,866.03,2.04959e-06
867.75,2.04147e-06,867.75,0.00117589,867.75,2.04147e-06,867.75,3.26635e-05,867.75,2.04147e-06
869.47,2.0334e-06,869.47,0.00117124,869.47,2.0334e-06,869.47,3.25344e-05,869.47,2.0334e-06
871.19,2.02538e-06,871.19,0.00126586,871.19,2.02538e-06,871.19,3.24061e-05,871.19,2.02538e-06
872.9,8.06982e-06,872.9,0.00126091,872.9,2.01745e-06,872.9,3.22793e-05,872.9,2.01745e-06
874.62,8.03811e-06,874.62,0.00125595,874.62,2.00953e-06,874.62,3.21524e-05,874.62,2.00953e-06
876.34,8.00659e-06,876.34,0.00125103,876.34,2.00165e-06,876.34,3.20263e-05,876.34,2.00165e-06
878.05,7.97543e-06,878.05,0.00124616,878.05,1.99386e-06,878.05,3.19017e-05,878.05,1.99386e-06
879.77,7.94428e-06,879.77,0.001241293,879.77,1.98607e-06,879.77,3.17771e-05,879.77,1.98607e-06
881.48,7.91348e-06,881.48,0.00113954,881.48,1.97837e-06,881.48,3.16539e-05,881.48,1.97837e-06
883.2,7.88269e-06,883.2,0.00113511,883.2,1.97067e-06,883.2,3.15308e-05,883.2,1.97067e-06
884.91,7.85225e-06,884.91,0.00113072,884.91,1.96306e-06,884.91,0.000031409,884.91,1.96306e-06
886.62,0.000007822,886.62,0.00112637,886.62,1.9555e-06,886.62,0.000031288,886.62,1.9555e-06
888.34,7.79173e-06,888.34,0.00112201,888.34,1.94793e-06,888.34,3.11669e-05,888.34,1.94793e-06
890.05,7.76182e-06,890.05,0.0011177,890.05,1.94046e-06,890.05,3.10473e-05,890.05,1.94046e-06
891.76,7.73208e-06,891.76,0.00111342,891.76,0.000001933,891.76,3.09283e-05,891.76,0.000001933
893.47,7.70252e-06,893.47,0.00110916,893.47,1.92563e-06,893.47,3.08101e-05,893.47,1.92563e-06
895.18,7.67312e-06,895.18,0.00110493,895.18,1.91828e-06,895.18,3.06925e-05,895.18,1.91828e-06
896.9,7.64372e-06,896.9,0.0011007,896.9,1.91093e-06,896.9,3.05749e-05,896.9,1.91093e-06
898.61,7.61465e-06,898.61,0.00109651,898.61,1.90366e-06,898.61,3.04586e-05,898.61,1.90366e-06
900.32,7.58575e-06,900.32,0.00109235,900.32,1.89644e-06,900.32,0.000030343,900.32,1.89644e-06
902.02,7.55719e-06,902.02,0.00108824,902.02,1.8893e-06,902.02,3.02288e-05,902.02,1.8893e-06
903.73,7.52862e-06,903.73,0.00108412,903.73,1.88215e-06,903.73,3.01145e-05,903.73,1.88215e-06
905.44,7.50021e-06,905.44,0.00108003,905.44,1.87505e-06,905.44,3.00008e-05,905.44,1.87505e-06
907.15,0.000007472,907.15,0.00107596,907.15,0.000001868,907.15,2.98878e-05,907.15,0.000001868
908.86,7.44387e-06,908.86,0.00107192,908.86,0.000001861,908.86,2.97755e-05,908.86,0.000001861
910.56,0.000001854,910.56,0.00106792,910.56,0.000001854,910.56,2.96644e-05,910.56,0.000001854
912.27,0,912.27,0.00106392,912.27,1.84708e-06,912.27,2.95533e-05,912.27,1.84708e-06
913.98,0,913.98,0.00115011,913.98,1.84018e-06,913.98,2.94428e-05,913.98,1.84018e-06
915.68,0,915.68,0.00114584,915.68,1.83335e-06,915.68,2.93336e-05,915.68,1.83335e-06
917.39,0,917.39,0.00105208,917.39,1.82652e-06,917.39,2.92243e-05,917.39,1.82652e-06
919.09,0,919.09,0.00104819,919.09,1.81977e-06,919.09,2.91163e-05,919.09,1.81977e-06
920.8,0,920.8,0.001044298,920.8,0.000001813,920.8,2.90083e-05,920.8,0.000001813
922.5,0,922.5,0.00104045,922.5,1.80634e-06,922.5,2.89015e-05,922.5,1.80634e-06
924.2,0,924.2,0.00112481,924.2,1.7997e-06,924.2,2.87952e-05,924.2,1.7997e-06
925.91,0,925.91,0.00112066,925.91,1.79306e-06,925.91,0.000028689,925.91,1.79306e-06
927.61,0,927.61,0.00111656,927.61,1.78649e-06,927.61,1.60785e-05,927.61,1.78649e-06
929.31,0.00000178,929.31,0.00129759,929.31,0.00000178,929.31,1.60197e-05,929.31,0.00000178
931.01,7.09388e-06,931.01,0.00129286,931.01,1.77347e-06,931.01,1.59612e-05,931.01,0
932.71,1.59031e-05,932.71,0.00128815,932.71,0.000001767,932.71,1.59031e-05,932.71,0
934.41,1.58453e-05,934.41,0.00119016,934.41,1.76059e-06,934.41,1.58453e-05,934.41,0
936.12,1.57875e-05,936.12,0.00118581,936.12,1.75416e-06,936.12,1.57875e-05,936.12,0
937.81,2.79655e-05,937.81,0.00118154,937.81,1.74784e-06,937.81,1.57306e-05,937.81,0
939.51,1.56737e-05,939.51,0.00117727,939.51,1.74153e-06,939.51,1.56737e-05,939.51,0
941.21,1.56172e-05,941.21,0.0009994982,941.21,1.73524e-06,941.21,1.56172e-05,941.21,1.73524e-06
942.91,0.000006916,942.91,0.0009958974,942.91,0.000001729,942.91,1.55609e-05,942.91,0.000001729
944.61,6.89108e-06,944.61,0.000992316,944.61,1.72277e-06,944.61,2.75643e-05,944.61,1.72277e-06
946.31,1.71659e-06,946.31,0.0009080744,946.31,1.71659e-06,946.31,2.74654e-05,946.31,1.71659e-06
948,1.71047e-06,948,0.0009048396,948,1.71047e-06,948,2.73675e-05,948,1.71047e-06
949.7,1.70435e-06,949.7,0.0009016031,949.7,1.70435e-06,949.7,2.72697e-05,949.7,1.70435e-06
951.4,1.69827e-06,951.4,0.0008983839,951.4,1.69827e-06,951.4,2.71723e-05,951.4,1.69827e-06
953.09,1.69225e-06,953.09,0.0009747366,953.09,1.69225e-06,953.09,0.000027076,953.09,1.69225e-06
954.79,1.68623e-06,954.79,0.0009712686,954.79,1.68623e-06,954.79,2.69797e-05,954.79,1.68623e-06
956.48,1.68028e-06,956.48,0.0009678394,956.48,1.68028e-06,956.48,2.68844e-05,956.48,1.68028e-06
958.17,1.67435e-06,958.17,0.0009644283,958.17,1.67435e-06,958.17,2.67897e-05,958.17,1.67435e-06
959.87,1.66843e-06,959.87,0.0009610152,959.87,1.66843e-06,959.87,2.66949e-05,959.87,1.66843e-06
961.56,6.65028e-06,961.56,0.0009576401,961.56,1.66257e-06,961.56,2.66011e-05,961.56,1.66257e-06
963.25,1.65674e-06,963.25,0.001035463,963.25,1.65674e-06,963.25,2.65079e-05,963.25,1.65674e-06
964.95,1.65091e-06,964.95,0.0009509232,964.95,1.65091e-06,964.95,2.64145e-05,964.95,1.65091e-06
966.64,1.64514e-06,966.64,0.0009476011,966.64,1.64514e-06,966.64,2.63223e-05,966.64,1.64514e-06
968.33,1.6394e-06,968.33,0.0009442963,968.33,1.6394e-06,968.33,2.62305e-05,968.33,1.6394e-06
970.02,1.6337e-06,970.02,0.0009410088,970.02,1.6337e-06,970.02,2.61391e-05,970.02,1.6337e-06
971.71,0.000001628,971.71,0.0009377385,971.71,0.000001628,971.71,2.60483e-05,971.71,0.000001628
973.4,1.62237e-06,973.4,0.0008582337,973.4,1.62237e-06,973.4,2.59579e-05,973.4,1.62237e-06
975.09,1.61675e-06,975.09,0.0008552614,975.09,1.61675e-06,975.09,0.000025868,975.09,1.61675e-06
976.78,1.61116e-06,976.78,0.000928029,976.78,1.61116e-06,976.78,2.57786e-05,976.78,1.61116e-06
978.47,1.6056e-06,978.47,0.0009248261,978.47,1.6056e-06,978.47,2.56896e-05,978.47,1.6056e-06
980.16,1.60007e-06,980.16,0.0009216396,980.16,1.60007e-06,980.16,2.56011e-05,980.16,1.60007e-06
981.84,6.37839e-06,981.84,0.0009184883,981.84,1.5946e-06,981.84,2.55136e-05,981.84,1.5946e-06
983.53,6.35649e-06,983.53,0.0009153346,983.53,1.58912e-06,983.53,0.000025426,983.53,1.58912e-06
985.22,6.3347e-06,985.22,0.000912197,985.22,1.58368e-06,985.22,2.53388e-05,985.22,1.58368e-06
986.9,1.57829e-06,986.9,0.000909094,986.9,1.57829e-06,986.9,2.52526e-05,986.9,1.57829e-06
988.59,1.5729e-06,988.59,0.0009059884,988.59,1.5729e-06,988.59,3.93224e-05,988.59,1.5729e-06
990.27,1.56756e-06,990.27,0.000902917,990.27,1.56756e-06,990.27,3.91891e-05,990.27,1.56756e-06
991.96,6.24891e-06,991.96,0.000899843,991.96,1.56223e-06,991.96,3.90557e-05,991.96,1.56223e-06
993.64,1.55695e-06,993.64,0.0008968028,993.64,1.55695e-06,993.64,2.49112e-05,993.64,1.55695e-06
995.33,1.55167e-06,995.33,0.0008208316,995.33,1.55167e-06,995.33,2.48267e-05,995.33,1.55167e-06
997.01,1.54644e-06,997.01,0.0008180677,997.01,1.54644e-06,997.01,2.47431e-05,997.01,1.54644e-06
998.69,1.54124e-06,998.69,0.0008153177,998.69,1.54124e-06,998.69,2.46599e-05,998.69,1.54124e-06
1000.38,0.000001536,1000.38,0.0008125653,1000.38,0.000001536,1000.38,2.45766e-05,1000.38,0.000001536
1002.06,1.53089e-06,1002.06,0.000809843,1002.06,1.53089e-06,1002.06,2.44943e-05,1002.06,1.53089e-06
1003.74,1.52577e-06,1003.74,0.0008071343,1003.74,1.52577e-06,1003.74,2.44124e-05,1003.74,1.52577e-06
1005.42,1.52068e-06,1005.42,0.0008044392,1005.42,1.52068e-06,1005.42,2.43309e-05,1005.42,1.52068e-06
1007.1,1.51561e-06,1007.1,0.0008017576,1007.1,1.51561e-06,1007.1,3.78902e-05,1007.1,1.51561e-06
1008.78,1.51057e-06,1008.78,0.0007990894,1008.78,1.51057e-06,1008.78,3.77641e-05,1008.78,1.51057e-06
1010.46,1.50555e-06,1010.46,0.0008671951,1010.46,1.50555e-06,1010.46,3.76387e-05,1010.46,1.50555e-06
1012.14,1.50055e-06,1012.14,0.0007937927,1012.14,1.50055e-06,1012.14,3.75138e-05,1012.14,1.50055e-06
1013.82,1.49558e-06,1013.82,0.0007911641,1013.82,1.49558e-06,1013.82,2.39293e-05,1013.82,1.49558e-06
1015.5,1.49064e-06,1015.5,0.0007885485,1015.5,1.49064e-06,1015.5,2.38502e-05,1015.5,1.49064e-06
1017.17,1.48575e-06,1017.17,0.0007859613,1017.17,1.48575e-06,1017.17,0.000023772,1017.17,1.48575e-06
1018.85,1.48085e-06,1018.85,0.0007833715,1018.85,1.48085e-06,1018.85,3.70213e-05,1018.85,1.48085e-06
1020.53,0.000001476,1020.53,0.0007807945,1020.53,0.000001476,1020.53,3.68995e-05,1020.53,0.000001476
1022.2,1.47116e-06,1022.2,0.000712043,1022.2,1.47116e-06,1022.2,3.67791e-05,1022.2,1.47116e-06
1023.88,1.46634e-06,1023.88,0.0007756935,1023.88,1.46634e-06,1023.88,3.66585e-05,1023.88,1.46634e-06
1025.56,1.46154e-06,1025.56,0.0007731542,1025.56,1.46154e-06,1025.56,3.65385e-05,1025.56,1.46154e-06
1027.23,1.45679e-06,1027.23,0.0007706424,1027.23,1.45679e-06,1027.23,3.64198e-05,1027.23,1.45679e-06
1028.9,1.45207e-06,1028.9,0.0007681428,1028.9,1.45207e-06,1028.9,3.63016e-05,1028.9,1.45207e-06
1030.58,1.44734e-06,1030.58,0.0007656404,1030.58,1.44734e-06,1030.58,3.61834e-05,1030.58,1.44734e-06
1032.25,1.44266e-06,1032.25,0.0007631651,1032.25,1.44266e-06,1032.25,3.60664e-05,1032.25,1.44266e-06
1033.92,0.000001438,1033.92,0.0007607017,1033.92,0.000001438,1033.92,0.00003595,1033.92,0.000001438
1035.6,1.43334e-06,1035.6,0.0007582356,1035.6,1.43334e-06,1035.6,3.58334e-05,1035.6,1.43334e-06
1037.27,0,1037.27,0.0007557961,1037.27,1.42873e-06,1037.27,3.57182e-05,1037.27,1.42873e-06
1038.94,0,1038.94,0.0007533683,1038.94,1.42414e-06,1038.94,3.56034e-05,1038.94,1.42414e-06
1040.61,0,1040.61,0.0007509522,1040.61,1.41957e-06,1040.61,3.54892e-05,1040.61,1.41957e-06
1042.28,0,1042.28,0.0007485477,1042.28,0.000001415,1042.28,5.09409e-05,1042.28,0.000001415
1043.95,0,1043.95,0.0007461547,1043.95,1.4105e-06,1043.95,0.000050778,1043.95,1.4105e-06
1045.62,0,1045.62,0.0007437732,1045.62,0.000001406,1045.62,5.06159e-05,1045.62,0.000001406
1047.29,0,1047.29,0.000741403,1047.29,1.40152e-06,1047.29,5.04546e-05,1047.29,1.40152e-06
1048.96,0,1048.96,0.0007390442,1048.96,1.39706e-06,1048.96,5.02941e-05,1048.96,5.58824e-06
1050.63,0,1050.63,0.0007366966,1050.63,1.39262e-06,1050.63,5.01344e-05,1050.63,5.57048e-06
1052.3,0,1052.3,0.0007343602,1052.3,1.3882e-06,1052.3,4.99754e-05,1052.3,5.55282e-06
1053.96,0,1053.96,0.0006697762,1053.96,1.38384e-06,1053.96,4.98181e-05,1053.96,5.53534e-06
1055.63,0,1055.63,0.0006676587,1055.63,1.37946e-06,1055.63,4.96606e-05,1055.63,5.51784e-06
1057.3,0,1057.3,0.000727431,1057.3,1.37511e-06,1057.3,4.95038e-05,1057.3,5.50042e-06
1058.96,0,1058.96,0.0007251522,1058.96,1.3708e-06,1058.96,6.71691e-05,1058.96,5.48319e-06
1060.63,0,1060.63,0.0007228704,1060.63,1.36648e-06,1060.63,6.69578e-05,1060.63,5.46594e-06
1062.29,0,1062.29,0.000720613,1062.29,1.36222e-06,1062.29,6.67487e-05,1062.29,5.44887e-06
1063.96,0,1063.96,0.0006572451,1063.96,0,1063.96,6.65393e-05,1063.96,5.43178e-06
1065.62,0,1065.62,0.000655199,1065.62,1.35372e-06,1065.62,6.63321e-05,1065.62,5.41487e-06
1067.29,0,1067.29,0.0006531502,1067.29,1.34948e-06,1067.29,6.61247e-05,1067.29,5.39794e-06
1068.95,0,1068.95,0.0006511232,1068.95,1.3453e-06,1068.95,6.59195e-05,1068.95,5.38118e-06
1070.61,0,1070.61,0.0006491056,1070.61,1.34113e-06,1070.61,6.57152e-05,1070.61,5.36451e-06
1072.27,0,1072.27,0.0007072614,1072.27,0.000001337,1072.27,6.55119e-05,1072.27,5.34791e-06
1073.94,0,1073.94,0.0007050635,1073.94,0,1073.94,6.53083e-05,1073.94,5.33129e-06
1075.6,0,1075.6,0.0006430968,1075.6,0,1075.6,6.51069e-05,1075.6,5.31485e-06
1077.26,0,1077.26,0.0006411164,1077.26,0,1077.26,6.49064e-05,1077.26,5.29848e-06
1078.92,0,1078.92,0.0006391451,1078.92,0,1078.92,6.47068e-05,1078.92,1.18849e-05
1080.58,0,1080.58,0.0006371829,1080.58,0,1080.58,6.45082e-05,1080.58,1.18484e-05
1082.24,0,1082.24,0.0006352297,1082.24,0,1082.24,6.43104e-05,1082.24,1.18121e-05
1083.89,0,1083.89,0.0006332972,1083.89,0,1083.89,6.41148e-05,1083.89,1.17762e-05
1085.55,0,1085.55,0.0006313618,1085.55,0,1085.55,8.34859e-05,1085.55,1.17402e-05
1087.21,0,1087.21,0.0006294353,1087.21,0,1087.21,8.32311e-05,1087.21,1.17044e-05
1088.87,0,1088.87,0.0006858612,1088.87,0,1088.87,8.29775e-05,1088.87,1.16687e-05
1090.53,0,1090.53,0.0006837747,1090.53,0,1090.53,8.27251e-05,1090.53,1.16332e-05
1092.18,0,1092.18,0.0006817103,1092.18,0,1092.18,8.24753e-05,1092.18,1.15981e-05
1093.84,0,1093.84,0.0006796427,1093.84,1.28477e-06,1093.84,0.0001040663,1093.84,1.15629e-05
1095.49,0,1095.49,0.0006775969,1095.49,0,1095.49,0.000103753,1095.49,1.15281e-05
1097.15,0.000001277,1097.15,0.0006755481,1097.15,0,1097.15,0.0001034393,1097.15,2.04325e-05
1098.8,1.2732e-06,1098.8,0.0006735207,1098.8,0,1098.8,0.0001273196,1098.8,2.03711e-05
1100.46,1.26936e-06,1100.46,0.0006714903,1100.46,0,1100.46,0.0001269358,1100.46,2.03097e-05
1102.11,1.26556e-06,1102.11,0.000612531,1102.11,0,1102.11,0.0001531328,1102.11,0.000020249
1103.76,5.04712e-06,1103.76,0.000610701,1103.76,0,1103.76,0.0001816962,1103.76,3.15445e-05
1105.42,1.13219e-05,1105.42,0.0005547746,1105.42,0,1105.42,0.0002126007,1105.42,4.52877e-05
1107.07,3.13561e-05,1107.07,0.0005531221,1107.07,0,1107.07,0.0002822052,1107.07,0.000061458
1108.31,0.462612,1108.31,0,1108.31,0.00392452,1108.31,0.161287,1108.31,0.0763491